Folder: AXCSAS/outputs/results/xrd_merged (part 2)

File: xrd_9ml.csv
2Theta,0h,2h,4h,6h,8h,10h,12h,14h,16h,18h,20h,22h,24h
40.0015,633,651,585,621,620,617,656,610,643,578,607,684,618
40.2435,627,652,630,629,593,618,631,634,595,589,595,606,656
40.4855,624,605,672,570,688,618,605,600,665,628,634,582,591
40.7276,652,677,631,612,653,602,603,616,651,622,590,621,602
40.9696,641,617,659,722,684,639,611,626,608,669,593,622,574
41.2116,698,657,692,676,670,614,621,628,659,575,644,565,617
41.4536,626,629,656,595,637,663,610,619,613,652,598,611,618
41.6956,664,671,649,684,634,674,624,633,672,642,604,595,656
41.9377,726,750,779,763,753,753,653,671,622,685,680,675,663
42.1797,785,820,737,834,782,778,715,662,708,720,635,731,720
42.4217,907,869,791,831,798,754,779,741,722,773,729,756,722
42.6637,915,920,931,899,898,798,759,795,790,769,718,777,721
42.9058,1223,1150,1136,1166,1055,903,794,798,775,804,807,802,795
43.1478,2040,2029,2124,2001,1701,1385,1094,1187,1081,1124,1093,1136,1108
43.3898,8883,8319,8344,7915,6638,4248,3037,2687,2534,2636,2587,2567,2634
43.6318,10982,11237,11586,12456,15519,20133,23872,24108,24446,24670,23699,24890,24446
43.8738,2627,2525,2635,2510,2191,1558,1261,1198,1216,1188,1172,1181,1153
44.1159,1373,1329,1255,1328,1169,936,856,828,818,814,793,772,786
44.3579,999,1031,988,987,929,831,758,778,780,804,705,765,735
44.5999,917,921,857,856,821,722,759,723,706,701,734,713,752
44.8419,857,852,827,845,792,762,684,680,735,739,719,675,677
45.084,820,812,765,779,768,732,707,727,698,655,685,656,734
45.326,793,736,714,787,796,716,680,650,666,673,644,683,655
45.568,775,760,765,734,752,681,707,680,730,702,712,671,747
45.81,690,756,719,708,711,684,674,681,691,712,667,677,708
46.052,787,755,746,738,715,674,666,651,669,681,714,652,661
46.2941,726,711,697,693,697,688,666,706,646,676,653,664,670
46.5361,704,692,739,745,662,699,674,636,685,663,675,638,676
46.7781,716,719,716,742,697,684,615,668,629,673,663,657,715
47.0201,673,754,735,688,670,707,676,668,630,602,653,677,647
47.2622,658,673,649,701,706,705,667,607,672,665,628,655,673
47.5042,707,668,730,667,657,676,664,659,676,656,650,667,679
47.7462,670,702,725,719,668,670,642,657,629,663,632,612,672
47.9882,698,642,699,684,690,695,649,653,621,686,650,631,635
48.2302,704,678,672,701,730,658,631,615,644,655,658,628,653
48.4723,700,724,740,718,725,704,676,649,632,622,674,593,688
48.7143,701,650,690,731,694,656,657,622,667,637,664,629,667
48.9563,719,648,698,760,732,703,664,674,681,680,690,641,687
49.1983,792,789,725,754,706,687,645,632,684,670,694,646,685
49.4404,772,799,833,802,777,742,688,691,700,716,616,684,712
49.6824,882,843,861,875,841,738,688,657,672,694,676,656,668
49.9244,1021,1004,984,941,839,763,650,704,677,721,677,700,701
50.1664,1486,1405,1465,1276,1158,893,789,781,741,785,715,719,719
50.4084,2715,2717,2529,2481,2047,1436,1163,1107,1061,1047,1031,996,1065
50.6505,3889,3920,4182,4755,6196,8714,10404,10750,10784,11100,10812,11131,10943
50.8925,2492,2468,2489,2532,2064,1518,1353,1297,1229,1219,1223,1191,1205
51.1345,1339,1344,1312,1237,1108,889,745,752,759,748,745,725,761
51.3765,951,930,914,926,877,756,660,687,688,676,665,683,688
51.6186,785,804,835,780,767,686,694,652,678,670,625,676,663
51.8606,707,740,726,713,707,653,634,631,638,625,656,647,651
52.1026,740,665,712,721,687,640,660,673,650,623,688,606,613
52.3446,687,635,656,716,627,638,625,593,599,635,635,690,634
52.5866,694,706,637,677,639,659,624,622,669,635,672,608,609
52.8287,641,620,644,619,646,646,595,610,550,638,603,620,603
53.0707,677,677,638,661,684,661,626,633,601,621,644,639,638
53.3127,628,633,660,612,644,637,610,626,659,646,614,612,657
53.5547,631,663,650,655,655,708,604,654,601,624,628,660,619
53.7968,649,672,604,656,649,631,589,597,641,638,614,625,635
54.0388,580,667,612,645,638,629,632,659,564,606,623,622,611
54.2808,651,655,592,633,678,617,622,626,626,639,572,645,559
54.5228,618,619,592,627,590,636,616,593,610,616,593,606,625
54.7648,648,659,633,626,627,615,646,585,609,605,594,629,584
55.0069,640,642,602,619,599,608,633,618,611,584,598,632,649
55.2489,600,683,637,627,615,606,627,668,627,606,613,614,657
55.4909,639,628,621,598,621,633,643,632,613,634,623,616,660
55.7329,634,574,632,577,613,627,647,632,610,623,576,582,632
55.975,629,641,631,641,605,619,599,592,618,593,628,560,585
56.217,621,632,607,604,607,606,594,599,597,608,633,654,640
56.459,618,584,627,584,622,648,604,589,595,590,596,620,576
56.701,591,590,608,610,620,605,588,620,620,651,635,614,634
56.9431,621,591,621,613,644,606,595,594,606,588,625,615,569
57.1851,558,625,613,614,597,608,625,613,553,617,595,611,603
57.4271,617,604,605,600,636,644,606,588,639,610,563,599,637
57.6691,601,634,638,608,597,574,595,606,609,657,571,604,569
57.9111,632,592,592,645,605,586,641,584,620,613,603,621,574
58.1532,596,590,621,629,638,585,593,579,598,602,589,577,598
58.3952,574,607,617,626,597,596,586,567,635,621,626,653,566
58.6372,629,608,582,611,613,617,566,637,580,610,612,630,651
58.8792,639,645,635,590,561,629,589,613,573,633,616,587,629
59.1213,590,594,614,580,602,583,611,616,609,630,584,572,595
59.3633,601,644,581,619,582,592,593,597,606,654,564,553,602
59.6053,579,591,605,643,626,607,599,588,599,620,611,554,593
59.8473,617,598,603,641,597,579,596,580,610,584,606,557,575
60.0893,554,625,606,565,599,605,581,630,592,610,603,622,567
60.3314,584,622,614,673,580,648,611,618,623,621,584,629,597
60.5734,616,616,542,588,546,636,594,598,548,631,605,588,633
60.8154,606,574,558,617,597,601,605,583,598,591,601,611,590
61.0574,583,553,608,612,569,612,616,601,563,628,624,632,571
61.2995,618,637,605,637,634,637,607,632,576,551,622,540,584
61.5415,597,611,614,615,592,612,608,580,588,613,567,620,588
61.7835,601,611,583,633,573,588,594,557,573,611,568,579,596
62.0255,603,621,610,602,617,616,594,604,628,602,583,561,584
62.2675,556,577,593,630,638,568,600,582,603,593,577,552,558
62.5096,602,576,584,580,594,610,590,567,602,573,608,595,612
62.7516,584,613,582,597,596,621,571,597,577,556,556,571,611
62.9936,614,592,593,598,545,558,572,592,579,599,635,611,580
63.2356,569,606,602,577,611,616,601,580,578,618,556,609,601
63.4777,594,580,593,596,565,572,587,560,557,625,595,555,613
63.7197,587,569,574,594,615,559,569,564,610,554,565,590,567
63.9617,578,598,579,610,562,599,592,588,589,606,594,603,590
64.2037,590,580,595,557,606,610,602,607,630,580,561,576,606
64.4457,619,575,550,583,571,577,626,580,577,612,568,570,609
64.6878,632,581,576,610,556,544,582,602,578,585,620,585,541
64.9298,598,605,597,585,550,583,581,569,567,617,549,608,554
65.1718,621,569,642,573,584,609,553,628,614,608,590,596,613
65.4138,537,579,597,560,585,576,603,599,595,577,620,545,602
65.6559,541,555,598,597,612,606,627,552,589,605,604,625,569
65.8979,592,610,599,583,583,555,572,590,622,592,570,568,604
66.1399,589,609,561,591,574,576,566,618,623,611,628,609,638
66.3819,577,592,597,606,618,619,587,563,603,577,558,610,577
66.6239,580,572,611,563,640,557,569,581,582,647,600,594,607
66.866,622,592,566,568,620,614,599,607,592,644,566,606,669
67.108,575,584,591,580,546,622,588,601,545,635,575,572,538
67.35,590,593,571,608,570,597,598,571,566,582,620,587,610
67.592,639,547,584,563,531,582,540,622,594,605,598,574,579
67.8341,654,573,583,593,563,612,604,582,576,610,552,596,616
68.0761,587,552,585,590,581,592,580,546,607,580,574,565,554
68.3181,618,561,605,561,628,637,574,573,599,584,582,586,549
68.5601,564,596,599,584,631,574,635,557,585,547,587,608,630
68.8021,641,592,585,546,599,599,583,601,599,566,551,572,615
69.0442,617,584,589,610,577,566,566,620,620,574,599,553,537
69.2862,624,575,584,595,618,568,596,592,556,597,600,580,526
69.5282,608,564,615,572,596,582,637,574,616,608,592,549,592
69.7702,597,571,571,579,569,589,609,613,630,580,569,639,583
70.0123,571,609,578,580,575,590,573,631,566,615,586,635,558
70.2543,636,569,589,603,622,587,575,577,568,591,564,584,564
70.4963,602,551,583,619,596,596,584,566,578,571,588,588,607
70.7383,602,619,599,561,583,569,561,598,579,587,571,585,601
70.9803,568,595,602,593,625,594,533,590,580,557,582,569,593
71.2224,596,585,574,624,551,596,626,597,617,608,604,591,600
71.4644,587,606,582,567,576,608,627,591,596,643,554,586,573
71.7064,586,574,583,595,636,589,604,617,578,569,649,609,585
71.9484,593,618,571,590,607,609,617,629,609,571,605,608,606
72.1905,645,583,618,596,573,577,595,609,583,641,629,623,572
72.4325,638,597,603,598,620,552,575,598,588,600,621,631,566
72.6745,627,593,605,562,614,595,598,589,606,610,589,622,540
72.9165,667,603,577,660,572,591,583,649,617,579,574,623,636
73.1585,601,584,633,616,586,632,592,601,611,647,602,587,638
73.4006,647,667,657,648,656,662,610,611,642,599,613,637,611
73.6426,723,719,729,707,661,656,643,651,600,678,657,647,675
73.8846,860,870,864,823,804,781,778,772,790,771,753,777,783
74.1266,1267,1179,1218,1241,1212,1142,1037,1089,1012,1053,1079,1027,1077
74.3687,1404,1460,1461,1554,1871,2354,2527,2635,2643,2652,2655,2601,2712
74.6107,1058,1099,1071,1079,1145,1158,1239,1273,1257,1189,1256,1246,1234
74.8527,784,804,796,766,774,734,713,691,664,710,693,703,665
75.0947,665,694,650,686,693,671,635,642,599,666,614,679,632
75.3367,633,613,621,595,635,606,588,589,618,626,613,642,600
75.5788,657,588,589,623,628,567,595,626,590,585,582,646,593
75.8208,612,581,601,602,648,617,625,605,618,649,604,597,670
76.0628,601,609,604,591,556,625,643,612,647,580,664,623,590
76.3048,587,586,576,594,632,609,632,609,565,604,542,658,619
76.5469,621,571,624,583,602,633,573,606,641,579,610,596,559
76.7889,560,601,558,614,577,613,595,607,601,608,618,620,620
77.0309,598,556,604,591,631,564,586,515,601,609,592,622,571
77.2729,603,584,603,571,612,567,576,598,594,568,605,569,593
77.5149,596,552,639,580,575,577,561,634,605,619,588,590,618
77.757,632,600,582,601,586,567,588,599,587,565,590,618,606
77.999,590,563,619,605,576,586,601,620,548,594,577,602,586

File: xrd_18ml.csv
2Theta,0h,2h,4h,6h,8h,10h,12h,14h,16h,18h,20h,22h,24h
40.0015,650,632,641,659,688,668,678,651,665,678,643,644,628
40.2435,687,657,662,631,606,637,662,645,656,629,616,656,672
40.4855,671,644,657,670,631,656,682,652,673,647,700,628,666
40.7276,695,696,675,623,640,612,672,658,645,642,644,679,646
40.9696,716,635,625,652,686,590,613,626,676,650,674,633,674
41.2116,744,747,693,676,634,697,636,655,696,629,653,649,620
41.4536,724,680,694,658,671,656,673,646,652,655,623,635,613
41.6956,715,697,703,773,680,662,637,647,681,694,623,650,660
41.9377,774,815,838,831,776,764,710,756,740,750,755,752,754
42.1797,895,893,877,865,828,818,754,814,817,723,790,739,800
42.4217,956,932,923,929,910,835,797,773,800,828,817,807,789
42.6637,1046,1128,1103,1032,936,907,785,807,784,802,753,781,763
42.9058,1505,1465,1497,1343,1173,903,859,868,848,875,879,865,851
43.1478,3025,3046,2923,2765,2073,1548,1432,1374,1375,1343,1406,1370,1290
43.3898,14686,14388,14638,13733,11476,9244,7885,7995,7884,8385,8065,7780,7686
43.6318,9977,10316,10318,9725,7685,6249,6149,5701,5782,5507,5509,6006,5868
43.8738,2604,2593,2565,2346,1827,1253,1219,1105,1189,1146,1140,1170,1125
44.1159,1343,1386,1410,1331,1125,952,867,868,891,787,860,862,867
44.3579,1108,1075,1131,996,990,787,798,787,789,769,768,774,794
44.5999,997,974,940,921,887,749,776,750,776,752,749,710,770
44.8419,885,907,853,855,807,737,736,716,706,803,712,743,710
45.084,869,838,823,821,753,731,709,730,724,769,809,696,752
45.326,789,846,846,799,763,717,716,740,677,736,664,720,753
45.568,835,820,810,794,765,678,733,718,751,729,764,759,704
45.81,789,779,824,814,779,750,753,675,723,691,748,680,683
46.052,802,751,786,796,744,692,715,721,695,648,705,720,715
46.2941,761,796,725,739,795,725,686,662,707,730,689,677,692
46.5361,701,761,787,719,732,678,703,666,695,679,682,711,708
46.7781,772,767,771,752,690,682,705,702,671,702,696,712,641
47.0201,753,683,774,792,760,696,675,690,721,702,667,712,675
47.2622,742,770,786,784,657,656,713,709,696,658,666,710,752
47.5042,746,708,771,720,714,702,669,669,679,680,694,659,623
47.7462,691,747,707,733,690,716,666,693,649,666,678,732,685
47.9882,794,749,768,722,731,653,642,682,683,632,696,689,662
48.2302,758,708,778,725,666,603,702,671,640,661,706,642,697
48.4723,756,715,778,757,725,752,706,671,644,719,656,642,679
48.7143,784,776,792,745,747,672,663,671,726,659,728,666,647
48.9563,844,818,803,824,720,705,677,686,657,679,753,714,707
49.1983,843,879,804,799,774,658,702,701,737,716,653,702,700
49.4404,862,857,820,815,722,729,735,675,690,700,673,701,684
49.6824,975,953,978,937,828,764,720,698,693,716,697,707,756
49.9244,1228,1186,1127,1081,922,804,708,751,727,704,739,731,710
50.1664,1887,1889,1878,1565,1251,941,849,895,805,817,823,820,807
50.4084,3490,3541,3367,3027,2224,1505,1280,1250,1227,1160,1250,1211,1224
50.6505,4243,4367,4462,4503,4437,4618,4865,4723,4819,4501,4766,4903,4831
50.8925,2503,2667,2564,2287,1697,1275,1103,1023,1090,1042,1012,1058,1013
51.1345,1349,1398,1380,1265,1057,823,857,778,777,738,823,721,743
51.3765,1022,1008,1035,944,800,679,687,678,741,716,704,713,709
51.6186,847,824,848,807,740,687,690,683,691,669,674,677,678
51.8606,823,750,766,784,663,685,662,689,695,656,638,621,656
52.1026,752,714,734,745,699,673,705,670,635,658,715,669,683
52.3446,695,702,710,648,725,687,683,655,653,696,654,664,679
52.5866,719,673,648,709,614,664,624,630,653,657,634,635,634
52.8287,685,658,705,695,689,631,625,620,652,664,657,605,653
53.0707,646,697,683,668,657,632,619,646,648,626,646,616,674
53.3127,729,641,664,704,645,602,663,671,626,689,638,621,618
53.5547,663,657,675,706,626,574,619,693,671,664,637,620,675
53.7968,693,678,688,638,672,636,674,651,697,672,669,621,621
54.0388,658,635,662,681,675,680,627,662,641,687,647,630,618
54.2808,645,650,701,734,673,677,603,626,684,593,693,619,660
54.5228,663,642,683,680,603,622,681,702,640,670,652,611,631
54.7648,676,618,694,665,623,604,642,650,645,628,634,625,626
55.0069,698,674,689,688,679,615,693,661,626,594,658,641,650
55.2489,640,627,642,671,693,628,634,663,645,708,635,628,674
55.4909,637,628,655,681,626,649,622,642,644,628,616,658,653
55.7329,665,593,663,672,638,651,634,628,616,623,629,639,635
55.975,639,638,612,675,619,583,649,678,647,665,653,586,665
56.217,644,686,650,589,611,638,630,600,583,662,619,668,579
56.459,643,649,611,617,631,609,606,630,606,617,600,597,657
56.701,587,680,618,696,617,676,631,629,648,605,649,654,635
56.9431,637,613,674,645,678,612,576,633,607,623,623,631,605
57.1851,659,630,629,638,658,626,624,610,611,637,621,639,591
57.4271,651,669,629,676,642,617,592,613,674,659,679,618,592
57.6691,598,574,613,635,600,601,630,659,631,642,598,661,672
57.9111,664,687,632,615,629,635,660,593,640,612,607,607,612
58.1532,664,690,649,664,661,624,633,625,616,640,612,637,652
58.3952,615,608,665,633,631,651,658,612,632,635,646,625,636
58.6372,651,645,638,611,588,589,607,641,609,642,610,633,598
58.8792,636,616,632,637,607,620,640,610,583,628,655,661,618
59.1213,608,656,594,622,620,643,656,631,637,658,640,615,618
59.3633,624,595,660,630,670,655,658,625,581,571,643,641,598
59.6053,626,631,594,609,608,632,613,608,634,601,632,641,610
59.8473,607,631,619,641,666,632,614,622,636,621,624,644,586
60.0893,646,596,618,608,637,623,682,608,606,577,608,642,636
60.3314,648,649,611,653,593,637,625,656,684,579,582,639,639
60.5734,632,633,650,632,628,627,593,667,640,663,604,617,640
60.8154,600,676,624,641,628,591,615,663,611,608,633,566,581
61.0574,651,598,602,612,611,639,613,681,573,611,637,639,639
61.2995,646,594,670,623,605,612,569,647,609,606,608,616,603
61.5415,670,619,640,670,628,661,608,625,590,677,594,595,591
61.7835,628,638,618,597,588,623,636,595,633,637,637,562,649
62.0255,661,655,644,601,586,591,645,657,599,605,604,623,575
62.2675,649,635,652,623,623,632,649,628,611,597,645,575,622
62.5096,659,631,618,596,588,634,548,632,599,658,611,621,596
62.7516,626,623,637,667,582,625,574,651,638,620,627,648,654
62.9936,633,627,635,594,672,665,614,615,634,605,619,654,650
63.2356,629,601,629,623,630,620,623,606,640,649,605,556,621
63.4777,676,622,656,589,609,590,637,614,611,630,636,587,646
63.7197,665,633,613,617,618,560,607,658,616,613,633,597,598
63.9617,609,599,585,623,652,622,611,639,651,624,624,589,656
64.2037,622,630,607,593,644,572,637,635,632,612,582,623,642
64.4457,619,596,643,621,665,633,642,628,631,621,654,600,648
64.6878,581,587,629,639,637,557,607,599,605,640,615,659,660
64.9298,617,605,582,648,626,667,592,611,553,598,610,653,594
65.1718,636,671,607,595,605,617,632,621,580,632,589,614,649
65.4138,631,602,638,625,633,655,639,600,595,590,628,602,679
65.6559,612,647,645,598,613,575,613,641,592,586,615,612,626
65.8979,615,612,577,600,617,637,607,648,608,644,603,614,621
66.1399,599,643,620,640,638,639,605,657,643,633,714,628,655
66.3819,625,652,616,637,627,614,654,611,646,617,570,619,585
66.6239,599,653,619,608,600,606,595,634,587,585,580,578,629
66.866,634,583,656,617,605,606,566,599,659,626,617,604,633
67.108,643,585,577,631,577,598,584,621,634,571,634,635,598
67.35,607,610,679,640,655,631,640,565,595,626,597,611,571
67.592,604,625,632,596,630,627,626,600,579,617,613,600,640
67.8341,618,598,618,640,630,598,601,619,645,630,638,629,570
68.0761,622,640,640,621,607,616,624,605,586,628,626,594,601
68.3181,623,630,600,602,600,590,665,610,632,608,618,611,628
68.5601,590,605,623,629,604,588,604,636,654,603,593,636,611
68.8021,617,578,614,648,570,595,618,649,617,616,580,584,584
69.0442,595,600,633,621,600,639,580,622,636,606,626,604,591
69.2862,608,640,662,632,583,604,619,645,589,635,620,577,645
69.5282,605,592,660,628,608,591,612,599,615,582,625,591,602
69.7702,623,596,631,616,669,590,596,652,638,625,594,611,657
70.0123,604,571,593,588,572,664,571,581,625,600,613,577,593
70.2543,605,591,573,637,651,612,606,613,641,619,627,615,599
70.4963,592,587,633,603,644,606,587,659,586,589,588,574,563
70.7383,574,621,614,653,634,604,610,643,639,608,568,623,626
70.9803,641,538,615,642,640,626,602,617,623,653,641,613,614
71.2224,657,629,612,661,648,621,626,607,628,615,643,610,622
71.4644,635,620,587,628,634,628,635,650,654,616,622,612,642
71.7064,622,580,624,621,599,618,592,645,631,667,630,622,603
71.9484,628,622,579,609,597,610,625,666,612,671,653,649,590
72.1905,619,637,617,621,656,605,649,650,642,640,625,651,638
72.4325,634,617,658,650,616,641,622,646,628,636,628,617,620
72.6745,646,590,631,612,607,654,678,625,638,674,626,612,616
72.9165,606,622,643,615,606,659,676,613,600,647,598,662,653
73.1585,630,639,664,662,652,686,627,669,641,610,628,635,688
73.4006,730,684,632,671,660,666,645,652,649,672,628,652,633
73.6426,795,709,758,717,694,693,659,653,685,674,649,650,693
73.8846,928,868,935,938,914,947,918,846,896,855,822,802,872
74.1266,1284,1290,1356,1444,1515,1615,1515,1617,1599,1678,1549,1568,1661
74.3687,1327,1333,1324,1582,1976,2102,2215,2142,2114,2229,2208,2179,2207
74.6107,1027,987,1015,1024,959,1008,1003,1048,1021,1017,983,1063,1037
74.8527,752,790,778,759,756,715,681,695,702,715,730,693,742
75.0947,716,704,682,713,710,662,725,652,638,718,699,619,654
75.3367,640,665,675,701,614,644,633,646,667,626,677,634,655
75.5788,605,658,606,604,639,615,620,683,670,615,678,640,660
75.8208,636,634,676,640,615,605,635,671,617,631,662,616,582
76.0628,626,577,570,667,630,605,647,652,648,631,646,636,642
76.3048,617,624,633,670,640,582,626,574,597,631,645,638,599
76.5469,616,648,632,600,623,662,597,590,652,600,628,620,649
76.7889,631,598,639,614,611,598,657,607,655,658,635,626,674
77.0309,615,614,627,632,593,585,633,649,628,606,631,638,631
77.2729,600,627,632,652,629,618,645,596,630,589,631,616,634
77.5149,637,585,596,615,623,677,645,619,634,677,664,606,636
77.757,601,604,643,636,635,623,592,653,600,629,603,633,634
77.999,657,604,597,612,623,581,585,606,623,594,655,618,595