Folder: AXCSAS/outputs/results/xrd_merged

Note: README.md
# AXCSAS 
## Advanced XRD Crystallite Size Analysis System

åŸºæ–¼å½æ²ƒä¼Šç‰¹å·ç©èˆ‡å„€å™¨æ ¡æ­£çš„è‡ªå‹•åŒ–æ™¶ç²’å°ºå¯¸è¨ˆç®—ç³»çµ±

---

## ğŸ“‹ å°ˆæ¡ˆç°¡ä»‹

AXCSAS æ˜¯ä¸€å¥—è‡ªå‹•åŒ–æ¼”ç®—æ³•ç³»çµ±ï¼Œè§£æ±ºå‚³çµ±æ‰‹å‹•è¨ˆç®— Scherrer Size æ™‚é¢è‡¨çš„ï¼š
- åŸºç·šé¸å–ä¸»è§€èª¤å·®
- å„€å™¨å±•å¯¬æ‰£é™¤ä¸ç²¾ç¢º
- å³°å‹æ“¬åˆå‡½æ•¸é¸æ“‡éŒ¯èª¤

### æ ¸å¿ƒç‰¹è‰²
- **Pseudo-Voigt å…¨è­œæ“¬åˆ**ï¼šæ¡ç”¨å­¸è¡“ç•Œå…¬èªæœ€æ¥è¿‘çœŸå¯¦æ™¶é«”ç¹å°„è¡Œç‚ºçš„æ•¸å­¸æè¿°
- **Caglioti å„€å™¨æ ¡æ­£**ï¼šåˆ©ç”¨ NIST SRM 660c (LaBâ‚†) é€²è¡Œå…¨è§’åº¦å„€å™¨å¯¬åº¦æ ¡æ­£
- **é«˜ç²¾åº¦é æ¸¬**ï¼šé©ç”¨æ–¼ 2-100 nm ç¯„åœå…§æ™¶ç²’å°ºå¯¸

---

## ğŸš€ å¿«é€Ÿé–‹å§‹

### å®‰è£ä¾è³´
```bash
pip install -r requirements.txt
```

### å„€å™¨æ ¡æ­£
```bash
python scripts/calibrate_instrument.py --standard data/standards/LaB6_SRM660c.xy
```

### æ¨£å“åˆ†æ
```bash
python scripts/analyze_sample.py --input data/raw/sample.xy --output outputs/results/
```

### æ‰¹æ¬¡åˆ†æ
```bash
python scripts/batch_analysis.py --input-dir data/raw/202511/ --output-dir outputs/results/
```

---

## ğŸ“ å°ˆæ¡ˆçµæ§‹

```
AXCSAS/
â”œâ”€â”€ config.yaml              # å…¨åŸŸè¨­å®šæª”
â”œâ”€â”€ data/                    # æ•¸æ“šç›®éŒ„
â”‚   â”œâ”€â”€ raw/                 # åŸå§‹ XRD æ•¸æ“š
â”‚   â”œâ”€â”€ standards/           # NIST æ¨™æº–å“æ•¸æ“š
â”‚   â””â”€â”€ processed/           # é è™•ç†å¾Œæ•¸æ“š
â”œâ”€â”€ src/                     # æ ¸å¿ƒç¨‹å¼ç¢¼
â”‚   â”œâ”€â”€ preprocessing/       # æ•¸æ“šé è™•ç†æ¨¡çµ„
â”‚   â”œâ”€â”€ fitting/             # å³°å€¼æ“¬åˆæ ¸å¿ƒ
â”‚   â”œâ”€â”€ physics/             # ç‰©ç†è¨ˆç®—æ ¸å¿ƒ
â”‚   â”œâ”€â”€ validation/          # èª¤å·®åˆ†æèˆ‡é©—è­‰
â”‚   â””â”€â”€ utils/               # å·¥å…·å‡½å¼
â”œâ”€â”€ scripts/                 # åŸ·è¡Œè…³æœ¬
â”œâ”€â”€ outputs/                 # è¼¸å‡ºç›®éŒ„
â”œâ”€â”€ tests/                   # å–®å…ƒæ¸¬è©¦
â””â”€â”€ docs/                    # æ–‡ä»¶
```

---

## ğŸ“ ç†è«–åŸºç¤

### Pseudo-Voigt å³°å‹å‡½æ•¸
$$I(2\theta) = I_0 \cdot [ \eta L(2\theta) + (1-\eta) G(2\theta) ] + Background$$

### Caglioti æ–¹ç¨‹å¼
$$FWHM_{inst}^2 = U \tan^2\theta + V \tan\theta + W$$

### Scherrer æ–¹ç¨‹å¼
$$D = \frac{K \lambda}{\beta \cos\theta}$$

---

## ğŸ“š åƒè€ƒæ–‡ç»

- Langford, J. I., & Wilson, A. J. C. (1978). *Scherrer after sixty years*. J. Appl. Cryst., 11, 102-113.
- NIST Standard Reference Material 660c (LaBâ‚†)

---

## ğŸ“„ æˆæ¬Š

MIT License

File: xrd_0ml.csv
2Theta,0h,2h,4h,6h,8h,10h,12h,14h,16h,18h,20h,22h,24h
40.0015,645,659,654,653,668,670,624,651,637,634,634,610,651
40.2435,666,676,623,684,666,675,668,652,650,652,629,608,630
40.4855,669,639,683,653,634,624,613,640,667,617,630,656,666
40.7276,653,696,640,662,649,648,655,606,647,630,658,611,617
40.9696,640,703,734,710,737,645,680,619,645,648,605,580,668
41.2116,679,690,700,670,658,635,626,627,690,631,624,587,620
41.4536,687,704,701,714,670,707,628,650,635,659,640,636,654
41.6956,740,801,743,695,675,639,626,631,678,657,618,643,642
41.9377,821,760,811,825,803,746,764,762,746,735,795,762,723
42.1797,848,855,857,869,777,780,828,810,750,747,825,780,727
42.4217,917,921,917,946,876,804,821,831,780,802,791,752,790
42.6637,1107,1096,1070,1036,951,883,879,849,805,760,773,785,814
42.9058,1697,1669,1532,1487,1295,1097,950,1005,971,1009,969,940,1050
43.1478,4273,4201,4083,3844,3294,2475,2021,1907,1875,1893,1888,1900,1893
43.3898,15225,15749,16153,17722,23121,30361,39577,43546,41345,41987,42512,41346,41804
43.6318,4627,4590,4538,4256,3739,2615,2135,2048,1973,1943,1974,1897,1938
43.8738,1680,1677,1645,1593,1460,1155,969,949,948,891,903,914,909
44.1159,1126,1148,1155,1115,1030,927,802,831,807,802,761,800,839
44.3579,954,979,932,934,938,827,738,786,781,752,773,745,754
44.5999,828,855,928,948,845,747,740,731,785,784,748,749,721
44.8419,835,863,843,797,776,756,723,724,775,762,726,718,725
45.084,847,776,786,791,749,753,683,744,730,682,751,764,722
45.326,804,786,820,790,785,746,760,763,752,790,706,744,676
45.568,764,777,792,738,750,740,794,714,734,718,757,677,660
45.81,758,703,764,730,711,742,752,725,729,668,716,668,692
46.052,758,767,710,705,754,689,715,738,697,689,716,716,648
46.2941,764,771,664,746,734,697,699,718,709,711,725,687,702
46.5361,747,784,750,704,706,732,662,690,698,732,728,713,700
46.7781,747,736,693,729,736,724,707,709,727,647,663,648,693
47.0201,754,747,700,756,713,701,662,689,712,722,720,680,660
47.2622,727,690,764,698,714,704,701,699,740,639,681,692,695
47.5042,721,772,689,677,705,704,695,684,687,680,661,707,693
47.7462,736,710,702,654,691,686,657,716,743,681,676,675,670
47.9882,756,715,779,712,731,688,680,707,662,644,687,684,679
48.2302,745,684,726,728,675,689,679,662,665,654,671,679,653
48.4723,730,768,778,749,682,698,651,669,693,690,651,673,689
48.7143,759,749,760,771,694,731,720,712,707,656,714,678,738
48.9563,761,784,741,794,731,705,644,689,683,663,687,729,718
49.1983,812,822,783,764,783,689,683,728,708,668,647,701,710
49.4404,844,850,892,831,771,776,773,722,737,690,647,679,704
49.6824,988,1009,969,897,889,776,716,676,701,697,725,744,699
49.9244,1265,1262,1245,1130,1045,859,753,720,764,748,732,721,794
50.1664,2035,2013,1992,1867,1565,1137,982,918,896,914,897,962,872
50.4084,3827,3744,3732,3630,3422,3186,2673,2566,2659,2687,2527,2681,2647
50.6505,3299,3385,3459,3650,4313,5607,6724,6992,6802,7041,7121,6833,6878
50.8925,1721,1716,1695,1608,1432,1085,913,965,861,877,903,862,930
51.1345,1067,1104,1057,998,966,783,741,743,732,738,719,744,707
51.3765,884,842,929,834,774,756,724,674,674,714,717,703,704
51.6186,774,771,768,793,723,695,667,685,664,699,665,659,696
51.8606,716,742,767,751,720,691,660,693,687,613,644,651,684
52.1026,750,669,708,658,733,679,663,668,694,635,628,711,697
52.3446,677,686,699,677,715,661,633,688,680,642,650,655,661
52.5866,663,711,682,716,643,666,695,669,688,667,622,660,635
52.8287,725,688,695,633,622,688,625,646,707,635,657,640,677
53.0707,708,662,680,693,623,686,662,676,663,691,625,623,611
53.3127,638,693,682,654,674,647,677,639,677,641,631,619,660
53.5547,645,688,669,657,697,643,666,653,705,664,607,644,644
53.7968,646,634,628,649,615,595,649,679,664,631,632,624,651
54.0388,664,636,644,592,647,632,652,677,637,647,636,679,650
54.2808,639,650,641,633,645,706,637,614,638,691,644,633,657
54.5228,662,647,685,650,578,653,660,667,645,593,641,563,615
54.7648,658,640,656,646,629,623,612,648,596,648,680,608,591
55.0069,639,645,591,692,656,686,612,647,652,613,655,651,616
55.2489,681,641,638,620,663,663,662,672,637,648,625,668,708
55.4909,630,650,650,641,642,623,618,647,649,658,606,634,641
55.7329,680,653,676,626,684,661,626,635,683,612,636,616,620
55.975,632,622,605,639,707,643,654,651,637,603,609,632,675
56.217,627,660,612,646,619,659,613,656,636,626,607,609,637
56.459,652,626,662,642,620,627,657,623,633,626,655,618,632
56.701,677,650,636,587,602,611,632,603,611,647,622,667,652
56.9431,675,629,616,578,633,579,587,596,629,632,570,606,602
57.1851,659,627,622,644,653,615,589,609,638,649,636,623,599
57.4271,674,651,629,656,621,616,639,640,680,635,618,629,624
57.6691,636,628,620,583,618,653,648,556,600,639,642,617,639
57.9111,633,622,670,638,698,651,582,626,641,600,596,618,597
58.1532,611,657,640,617,606,623,631,626,654,626,642,600,672
58.3952,633,597,619,624,612,644,625,590,599,597,644,596,621
58.6372,620,579,686,605,587,643,611,600,616,661,591,620,639
58.8792,559,645,640,667,651,604,596,605,626,621,628,634,581
59.1213,655,632,656,651,589,575,628,642,615,600,641,651,644
59.3633,615,614,582,612,635,645,621,621,608,619,668,643,638
59.6053,611,613,613,613,643,596,599,624,630,602,654,622,598
59.8473,583,613,591,631,617,640,663,678,588,666,664,594,618
60.0893,623,655,635,602,641,656,597,677,645,618,591,602,591
60.3314,569,636,630,628,607,623,615,663,604,620,649,637,619
60.5734,598,594,649,635,609,552,607,625,622,586,599,569,614
60.8154,656,633,566,607,602,629,595,616,619,596,604,615,610
61.0574,650,592,603,632,653,649,644,591,618,620,597,590,631
61.2995,636,622,643,615,635,621,631,649,645,625,610,633,595
61.5415,639,654,624,615,614,612,649,595,598,609,600,602,640
61.7835,653,656,625,626,665,590,578,595,665,615,606,580,596
62.0255,606,619,605,608,607,631,599,652,611,612,622,602,596
62.2675,616,606,618,614,564,601,584,621,578,593,534,673,591
62.5096,573,619,626,618,602,608,644,615,599,622,587,599,630
62.7516,616,592,652,629,618,603,638,630,591,630,618,629,624
62.9936,597,571,617,647,608,651,635,576,657,602,594,662,621
63.2356,613,589,590,640,667,613,673,566,668,608,614,596,626
63.4777,588,631,618,614,568,624,624,571,605,633,614,617,608
63.7197,618,629,657,582,581,639,619,633,603,617,611,598,569
63.9617,633,643,611,618,623,645,640,607,626,591,634,589,613
64.2037,566,578,644,616,579,646,583,633,614,613,633,599,622
64.4457,587,621,632,622,595,640,614,626,617,636,616,594,629
64.6878,595,624,577,633,635,617,575,630,645,655,579,597,575
64.9298,626,619,617,608,615,585,631,580,641,594,596,604,605
65.1718,583,576,588,591,584,622,606,601,637,605,608,621,613
65.4138,607,617,618,630,615,592,599,634,588,637,619,610,570
65.6559,620,592,588,590,611,590,635,613,594,612,624,573,620
65.8979,607,649,618,566,605,588,575,606,614,597,617,641,616
66.1399,627,575,642,635,601,648,625,640,634,597,638,579,642
66.3819,587,647,593,615,653,599,658,610,615,623,626,615,567
66.6239,645,616,585,623,602,597,611,607,601,661,607,634,605
66.866,601,607,599,612,601,611,566,655,579,578,608,602,593
67.108,597,643,589,630,594,580,628,593,623,595,584,624,590
67.35,661,590,622,642,656,629,592,635,588,640,603,596,613
67.592,590,631,564,620,581,621,585,636,608,600,594,602,562
67.8341,618,621,606,585,572,627,593,607,652,575,588,575,618
68.0761,586,636,582,591,607,629,637,611,591,637,556,613,601
68.3181,629,608,653,640,613,622,580,594,629,598,626,617,575
68.5601,594,637,652,601,579,616,621,595,619,606,638,606,589
68.8021,582,633,581,598,614,612,593,602,597,629,559,603,581
69.0442,635,616,627,633,622,671,583,602,632,603,608,593,604
69.2862,611,591,613,610,651,617,594,597,568,587,593,635,597
69.5282,590,659,589,608,585,590,628,618,604,596,576,607,598
69.7702,611,639,602,631,602,606,584,584,631,564,622,631,583
70.0123,589,648,609,585,619,638,632,633,610,627,627,649,596
70.2543,591,619,601,578,604,601,559,599,603,594,597,636,593
70.4963,602,635,597,640,618,611,622,556,663,610,593,597,609
70.7383,590,622,602,615,606,598,587,567,614,575,568,598,626
70.9803,632,600,665,599,608,635,630,597,659,591,599,637,584
71.2224,595,612,575,602,583,618,628,656,622,633,584,626,556
71.4644,601,583,603,655,696,624,634,688,660,639,640,631,628
71.7064,596,644,638,614,610,628,641,665,678,617,603,635,609
71.9484,644,628,631,663,620,624,611,620,630,633,636,600,610
72.1905,624,589,601,582,688,645,661,660,611,637,606,634,657
72.4325,645,680,626,665,650,685,654,659,631,645,652,629,659
72.6745,683,627,691,584,656,658,668,639,653,623,623,643,580
72.9165,650,648,665,654,663,601,635,632,667,696,646,597,619
73.1585,641,706,644,672,630,698,658,643,651,641,680,637,617
73.4006,707,669,663,706,665,664,655,677,648,651,627,630,715
73.6426,808,758,782,803,741,695,720,685,709,694,729,699,729
73.8846,1067,986,1087,1075,997,932,881,916,871,905,846,862,865
74.1266,1522,1598,1733,2443,4568,6549,6464,6462,6813,6454,6492,6642,6701
74.3687,1328,1419,1553,2179,3849,5564,5889,6071,6148,6113,5885,6147,6367
74.6107,980,926,951,971,867,826,860,825,899,847,857,853,885
74.8527,750,771,731,708,753,717,702,719,670,687,657,697,680
75.0947,682,665,724,711,656,632,650,712,625,672,665,685,644
75.3367,688,653,637,614,639,699,632,624,621,617,646,656,667
75.5788,660,609,639,619,634,691,653,632,635,588,635,673,667
75.8208,611,595,598,651,638,581,646,604,643,618,584,635,644
76.0628,638,621,612,651,638,619,609,613,681,654,607,673,678
76.3048,631,646,578,613,635,586,622,636,599,654,646,650,643
76.5469,644,611,642,633,577,600,600,619,633,598,630,636,604
76.7889,623,637,593,599,600,601,628,588,647,624,604,620,615
77.0309,613,651,556,616,606,633,615,604,666,653,678,601,603
77.2729,608,623,625,616,588,610,622,619,596,598,638,582,598
77.5149,595,635,601,592,626,611,628,605,625,617,598,613,623
77.757,617,608,634,597,557,643,612,632,645,617,617,583,654
77.999,583,601,582,620,641,626,595,630,656,682,623,597,667

File: xrd_4.5ml.csv
2Theta,0h,2h,4h,6h,8h,10h,12h,14h,16h,18h,20h,22h,24h
40.0015,673,637,647,628,654,651,630,660,602,647,636,615,638
40.2435,635,642,629,640,635,629,640,609,623,652,647,619,659
40.4855,614,664,675,622,645,619,689,625,618,600,609,647,628
40.7276,621,671,646,689,636,649,649,601,657,607,622,653,626
40.9696,651,704,717,680,691,606,630,634,633,633,623,648,593
41.2116,704,652,674,615,636,648,636,655,666,603,626,648,651
41.4536,733,642,731,667,740,596,628,608,654,641,603,641,632
41.6956,755,791,724,782,659,636,617,658,633,675,624,607,602
41.9377,808,808,814,762,829,730,775,747,749,758,726,686,737
42.1797,871,846,878,796,809,759,744,748,686,763,786,797,772
42.4217,974,935,910,1007,897,841,807,794,738,780,752,766,733
42.6637,1125,1170,1178,1104,976,855,873,828,833,804,755,817,815
42.9058,1977,1982,1886,1853,1545,1255,1182,1146,1143,1109,1125,1101,1111
43.1478,6476,6540,6231,6029,4699,3113,2489,2315,2332,2260,2233,2310,2247
43.3898,13715,14391,14783,15679,17716,18973,18650,18722,20518,19591,19927,19046,18763
43.6318,3259,3369,3344,3140,2636,1774,1606,1522,1451,1474,1478,1543,1591
43.8738,1528,1453,1442,1415,1245,956,931,857,876,865,900,865,852
44.1159,1048,1134,1023,1001,987,911,805,776,843,784,790,759,729
44.3579,922,935,887,900,896,791,750,752,739,768,757,790,781
44.5999,877,908,895,828,825,778,737,733,744,724,767,779,681
44.8419,849,799,785,798,754,736,694,727,749,730,698,744,720
45.084,781,814,785,794,783,724,708,747,698,754,697,716,763
45.326,757,843,794,787,754,740,695,770,778,755,734,786,741
45.568,728,768,739,711,712,778,676,677,704,721,711,716,661
45.81,661,787,762,775,762,718,726,736,684,710,710,694,694
46.052,717,768,779,708,705,651,683,678,692,724,671,702,691
46.2941,654,689,755,757,688,716,712,658,651,666,645,711,669
46.5361,749,753,691,722,687,668,697,658,696,675,682,711,707
46.7781,729,730,739,710,716,687,713,653,695,667,660,690,663
47.0201,715,715,710,691,685,665,696,650,679,648,685,682,697
47.2622,700,729,708,668,697,694,683,646,669,671,658,714,647
47.5042,676,674,690,694,710,684,693,640,636,673,651,662,677
47.7462,738,730,692,706,737,656,707,647,699,680,671,680,693
47.9882,723,720,726,728,680,633,677,669,659,666,724,675,657
48.2302,687,710,693,706,726,701,682,648,679,711,649,653,652
48.4723,754,758,773,728,662,696,640,669,619,615,612,651,661
48.7143,759,764,738,754,709,668,676,687,663,702,690,697,676
48.9563,783,766,800,759,782,658,726,671,681,761,710,685,667
49.1983,804,767,850,786,810,672,677,693,688,705,656,681,675
49.4404,803,864,847,875,806,694,729,685,678,703,662,726,697
49.6824,1000,992,985,987,840,736,721,684,728,685,713,744,721
49.9244,1401,1380,1329,1306,1029,873,769,736,776,725,731,760,777
50.1664,2428,2426,2371,2317,1810,1226,1009,975,952,951,983,1001,944
50.4084,4009,4155,4365,5165,7016,8713,8673,8728,9310,8740,9177,9006,8797
50.6505,2869,2989,2984,2856,2540,2066,2143,2114,1977,2027,1942,2035,1979
50.8925,1509,1584,1556,1566,1293,932,806,801,765,820,797,796,787
51.1345,1022,1060,997,966,897,787,724,718,697,688,697,694,690
51.3765,838,827,859,783,746,698,667,687,703,679,697,647,725
51.6186,758,737,749,788,720,695,672,653,664,693,660,693,688
51.8606,748,741,719,718,693,665,652,638,655,651,675,693,682
52.1026,695,717,757,682,679,662,664,682,671,651,605,633,631
52.3446,704,654,721,701,666,655,686,667,642,647,655,623,604
52.5866,668,643,692,688,662,703,677,650,656,654,632,634,612
52.8287,687,636,643,666,655,665,635,686,610,649,665,615,685
53.0707,633,711,581,629,657,626,676,610,647,685,644,626,615
53.3127,627,624,664,666,691,660,643,627,623,658,631,682,616
53.5547,620,618,676,619,655,642,680,670,582,642,640,649,605
53.7968,681,674,604,652,665,635,631,641,620,619,629,595,610
54.0388,653,659,665,633,635,650,615,658,610,589,609,637,658
54.2808,645,646,600,685,669,666,641,606,613,568,646,650,632
54.5228,647,627,630,611,597,644,605,646,632,617,651,645,609
54.7648,650,660,619,637,611,670,642,619,676,619,568,658,599
55.0069,609,632,605,673,650,658,622,651,664,641,633,616,614
55.2489,593,623,641,618,629,645,639,673,642,671,654,627,582
55.4909,662,629,679,622,645,579,626,622,633,613,650,619,602
55.7329,594,630,645,631,622,620,650,676,632,633,562,646,613
55.975,636,605,607,640,606,611,621,680,605,603,635,637,609
56.217,606,609,616,685,629,616,645,622,606,594,636,650,638
56.459,603,622,604,627,680,666,621,665,621,623,618,602,644
56.701,655,584,616,633,636,618,620,629,600,617,627,630,608
56.9431,627,616,634,584,653,618,642,655,579,630,607,678,595
57.1851,666,654,585,626,603,616,631,617,601,605,598,629,606
57.4271,580,660,582,613,620,642,647,600,603,662,646,576,575
57.6691,624,674,591,567,646,629,628,620,628,586,576,609,627
57.9111,624,576,640,652,628,671,618,633,607,571,633,617,584
58.1532,639,613,662,640,605,586,631,615,626,607,602,597,621
58.3952,598,611,577,600,628,561,624,558,601,616,593,641,608
58.6372,604,600,628,613,613,608,590,591,576,585,624,614,611
58.8792,577,588,625,631,591,642,633,581,603,616,639,660,637
59.1213,620,660,602,610,655,629,580,629,621,623,616,616,582
59.3633,577,623,628,593,628,584,606,627,591,622,627,615,590
59.6053,593,605,630,607,657,599,602,602,624,651,609,588,647
59.8473,589,572,596,646,612,609,620,647,573,662,616,628,586
60.0893,581,643,673,647,597,580,604,595,672,604,630,613,625
60.3314,624,631,606,613,598,630,631,637,617,622,535,642,606
60.5734,605,598,619,607,595,588,583,590,611,613,610,638,578
60.8154,614,643,613,581,640,620,597,603,598,606,589,632,597
61.0574,610,570,644,616,605,571,607,587,588,580,613,660,628
61.2995,571,595,617,599,635,611,607,638,645,563,593,650,596
61.5415,632,610,630,639,577,600,622,593,581,676,599,591,590
61.7835,621,628,558,629,621,604,664,625,597,570,585,569,613
62.0255,670,637,640,560,592,599,584,605,590,632,608,618,643
62.2675,612,585,604,630,627,654,586,588,608,642,594,580,617
62.5096,617,618,606,615,569,581,582,598,583,655,612,602,616
62.7516,670,587,573,622,594,609,551,632,610,548,636,649,574
62.9936,584,580,589,624,620,616,596,612,628,603,635,615,640
63.2356,614,627,626,615,610,626,615,599,633,622,597,617,600
63.4777,615,610,552,594,597,551,607,608,615,601,600,579,595
63.7197,657,585,584,617,619,586,584,643,575,602,575,591,604
63.9617,579,549,626,622,626,585,606,625,615,564,652,594,625
64.2037,605,593,590,595,602,604,605,603,550,622,598,636,638
64.4457,628,631,620,644,596,638,660,654,608,584,627,640,591
64.6878,621,629,598,615,634,581,613,593,620,597,589,611,613
64.9298,588,563,592,559,625,581,614,612,585,617,625,621,571
65.1718,584,612,638,594,565,571,623,598,587,631,635,622,564
65.4138,558,582,656,611,573,621,585,606,610,600,590,661,611
65.6559,613,598,568,658,578,587,648,617,609,613,588,627,587
65.8979,624,578,636,595,580,614,589,605,614,593,579,606,590
66.1399,603,614,631,608,623,631,588,657,581,632,585,602,598
66.3819,639,607,598,618,623,565,640,629,626,584,646,663,595
66.6239,611,637,641,575,595,603,637,601,550,610,617,586,613
66.866,554,632,609,586,567,552,580,626,618,582,617,578,592
67.108,601,594,589,594,627,580,606,596,630,619,619,617,626
67.35,611,602,615,592,567,593,665,604,565,630,629,572,585
67.592,545,585,611,634,554,589,583,594,567,572,605,600,638
67.8341,569,567,604,592,606,636,568,589,573,629,661,570,595
68.0761,579,609,594,554,619,570,603,599,562,592,627,618,569
68.3181,613,579,589,623,594,611,616,585,607,619,632,615,616
68.5601,639,633,605,595,557,623,634,584,630,597,612,593,602
68.8021,625,613,558,607,591,630,602,621,585,580,570,560,627
69.0442,625,628,632,651,623,585,599,582,628,591,609,595,583
69.2862,566,589,629,574,623,540,613,584,581,640,624,608,634
69.5282,606,601,578,560,564,586,631,590,638,599,640,592,544
69.7702,574,598,610,600,614,565,624,607,587,625,586,612,605
70.0123,626,611,612,560,599,594,575,585,625,639,589,606,610
70.2543,585,578,586,627,610,643,612,620,612,588,591,572,580
70.4963,627,581,603,574,635,625,624,591,565,592,595,610,602
70.7383,626,568,576,616,589,638,613,622,542,610,594,610,570
70.9803,640,576,606,585,613,574,604,591,576,613,641,595,580
71.2224,587,611,570,590,581,653,621,592,600,617,603,611,578
71.4644,605,608,647,622,597,589,604,582,618,640,609,639,627
71.7064,589,620,602,601,628,639,673,589,633,610,621,656,605
71.9484,631,634,584,620,675,601,659,653,587,622,572,621,630
72.1905,588,607,618,628,599,654,657,618,597,606,614,650,562
72.4325,605,589,627,605,606,608,638,627,650,607,590,624,611
72.6745,585,593,615,627,639,613,595,634,588,614,637,595,641
72.9165,612,596,625,639,636,575,632,638,654,655,609,635,602
73.1585,639,682,639,667,651,651,634,618,657,647,607,648,619
73.4006,700,686,684,679,667,633,643,653,594,617,637,691,691
73.6426,800,800,821,758,789,661,718,742,718,726,701,721,667
73.8846,1089,1126,1108,1032,994,924,972,914,917,873,929,952,947
74.1266,1512,1517,1730,3034,6679,10831,12189,12469,12360,12366,12577,12639,12444
74.3687,1144,1221,1268,1652,2626,3881,4490,4517,4529,4465,4517,4557,4469
74.6107,880,825,859,851,819,779,764,807,778,756,752,718,782
74.8527,701,734,728,691,697,701,684,647,671,683,677,667,657
75.0947,626,633,663,690,654,628,650,627,654,673,603,656,677
75.3367,640,664,668,628,608,647,643,638,608,637,633,689,608
75.5788,585,617,630,635,633,624,617,631,612,644,641,679,621
75.8208,616,607,604,634,667,653,623,615,653,602,587,593,642
76.0628,617,602,640,608,596,645,592,589,619,637,630,644,605
76.3048,618,567,620,613,568,612,621,623,621,598,614,639,605
76.5469,579,605,601,613,584,612,637,625,621,625,632,640,581
76.7889,615,616,671,624,629,594,634,637,634,583,620,617,623
77.0309,569,618,627,623,610,582,635,595,595,605,627,586,619
77.2729,607,574,599,605,616,590,619,590,613,590,609,611,571
77.5149,629,562,564,615,580,611,612,576,624,633,618,608,622
77.757,600,636,606,587,615,615,612,644,562,560,613,580,613
77.999,587,612,589,644,580,600,589,584,617,624,596,584,603